Folder: HyperspectraWithNeXL.jl/data/exp_raw/FeS_and_FeS2

Note: README.md
# HyperspectraWithNeXL

This code base is using the Julia Language and [DrWatson](https://juliadynamics.github.io/DrWatson.jl/stable/)
to make a reproducible scientific project named
> HyperspectraWithNeXL

HyperspectraWithNeXL provides the code and data discussed in the paper "Reproducible Spectral and Hyper-Spectral Analysis using NeXL"

The project is authored by Nicholas W. M. Ritchie.

To (locally) reproduce this project, do the following:

0. Download this code base. Notice that not all raw data is included in the git-history but will be automatically downloaded from the NIST MIDAS site upon first demand.
1. Open a Julia console and do:
   ```
   julia> using Pkg
   julia> Pkg.activate("path/to/this/project")
   julia> Pkg.instantiate()
   ```

This will install all necessary packages for you to be able to run the scripts and
everything should work out of the box.

File: FeS2 std.msa
#FORMAT      : EMSA/MAS Spectral Data File
#VERSION     : 1.0
#TITLE       : FeS2 std
#DATE        : 25-NOV-2020
#TIME        : 09:18
#OWNER       : Unknown
#NPOINTS     : 4096
#NCOLUMNS    : 1
#XUNITS      : eV
#YUNITS      : counts
#DATATYPE    : Y
#XPERCHAN    : 9.99864
#OFFSET      : 2.58389
#BEAMKV      : 20
#SIGNALTYPE  : EDS
#ELEVANGLE   : 35
#AZIMANGLE   : 0
#LIVETIME    : 705.753
#REALTIME    : 945.287
#PROBECUR    : 1.03663
#TAUWIND     : 0
#TDEADLYR    : 0
#TACTLYR     : 0.045
#TALWIND     : 0.003
#CHOFFSET    : 0.0
#XLABEL      : Energy (eV)
#YLABEL      : Counts
#EDSDET      : SDUTW
##SPECIMEN   : FeS2 std
##D2STDCMP   : FeS2,(S:53.4528),(Fe:46.5472),5.05
##DET_HASH   : 97086dfe-e5c2-9c77-3984-1d0b14bbbf41
##CALIB_HASH : 74de4f47-d9d5-d258-4eaf-eeb143e27589
##WORKING    : 17.0 mm
##SAMPLE     : <BulkSample id="1">\n<mOrientation id="2">\n<double>0.0</double>\n<double>0.0</double>\n<double>-1.0</double>\n</mOrientation>\n</BulkSample>
#SPECTRUM    :
2,
87,
17052,
5819,
54640,
189771,
11547,
14488,
16213,
19047,
21556,
22890,
23321,
25098,
25108,
27813,
405975,
353515,
61308,
12888,
13201,
13942,
13465,
13123,
12766,
12781,
12466,
12218,
11757,
11619,
11441,
10963,
10980,
15331,
10813,
9769,
9319,
9200,
9118,
8727,
8334,
8086,
7688,
7580,
8489,
84850,
266022,
9849,
6638,
7476,
35350,
21272,
4999,
4908,
4785,
4665,
4542,
4533,
4515,
4300,
4105,
4132,
5185,
4124,
3640,
3562,
3448,
3411,
3285,
3124,
3094,
2850,
2879,
2833,
2681,
2778,
2630,
2429,
2376,
2283,
2267,
2163,
2059,
2024,
1882,
1793,
1780,
1672,
1659,
1530,
1536,
1514,
1440,
1331,
1249,
1220,
1111,
1145,
1043,
986,
980,
932,
878,
868,
817,
747,
704,
636,
619,
612,
561,
526,
482,
484,
450,
407,
340,
381,
359,
318,
294,
289,
268,
233,
199,
201,
160,
181,
164,
128,
118,
83,
103,
100,
86,
57,
49,
22,
36,
26,
26,
16,
9,
4,
2,
5,
0,
1,
1,
0,
2,
4,
1,
2,
0,
1,
1,
0,
0,
0,
1,
2,
0,
0,
0,
0,
0,
0,
1,
0,
1,
2,
0,
0,
1,
0,
1,
0,
1,
0,
0,
0,
0,
0,
1,
0,
1,
0,
0,
0,
0,
0,
0,
0,
1,
0,
0,
0,
0,
0,
0,
0,
0,
0,
0,
0,
0,
1,
0,
0,
0,
0,
0,
0,
0,
0,
0,
0,
0,
0,
0,
0,
0,
0,
0,
0,
0,
0,
0,
0,
0,
0,
0,
0,
0,
0,
0,
0,
0,
0,
0,
0,
0,
0,
0,
0,
0,
0,
0,
0,
0,
0,
0,
0,
0,
0,
0,
0,
0,
0,
0,
0,
0,
0,
0,
0,
0,
0,
0,
0,
0,
0,
0,
0,
0,
0,
0,
0,
0,
0,
0,
0,
0,
0,
0,
0,
0,
0,
0,
0,
0,
0,
0,
0,
#ENDOFDATA   :

File: FeS std.msa
#FORMAT      : EMSA/MAS Spectral Data File
#VERSION     : 1.0
#TITLE       : FeS std
#DATE        : 25-NOV-2020
#TIME        : 10:24
#OWNER       : Unknown
#NPOINTS     : 4096
#NCOLUMNS    : 1
#XUNITS      : eV
#YUNITS      : counts
#DATATYPE    : Y
#XPERCHAN    : 9.99864
#OFFSET      : 2.58389
#BEAMKV      : 20
#SIGNALTYPE  : EDS
#ELEVANGLE   : 35
#AZIMANGLE   : 0
#LIVETIME    : 707.401
#REALTIME    : 922.83
#PROBECUR    : 1.0293
#TAUWIND     : 0
#TDEADLYR    : 0
#TACTLYR     : 0.045
#TALWIND     : 0.003
#CHOFFSET    : 0.0
#XLABEL      : Energy (eV)
#YLABEL      : Counts
#EDSDET      : SDUTW
##SPECIMEN   : FeS std
##D2STDCMP   : FeS,(S:36.4748),(Fe:63.5252),5.0
##DET_HASH   : 97086dfe-e5c2-9c77-3984-1d0b14bbbf41
##CALIB_HASH : 74de4f47-d9d5-d258-4eaf-eeb143e27589
##WORKING    : 17.0 mm
##SAMPLE     : <BulkSample id="1">\n<mOrientation id="2">\n<double>0.0</double>\n<double>0.0</double>\n<double>-1.0</double>\n</mOrientation>\n</BulkSample>
#SPECTRUM    :
4,
71,
18684,
6708,
50748,
191197,
10963,
14451,
14628,
17239,
19890,
21179,
22009,
23853,
23480,
25777,
269612,
238941,
49043,
15439,
15201,
15910,
15483,
15087,
14775,
14325,
13760,
13721,
13314,
13035,
12366,
12200,
11864,
14486,
11602,
10885,
10452,
10230,
10053,
9626,
9329,
8935,
8777,
8588,
9771,
115076,
369512,
11875,
7565,
8388,
46758,
27772,
5357,
5171,
5039,
4993,
4889,
5222,
4886,
4543,
4382,
4421,
5476,
4583,
4139,
3803,
3773,
3776,
3622,
3425,
3266,
3189,
3186,
3101,
2964,
2862,
2782,
2603,
2542,
2509,
2392,
2315,
2210,
2227,
2163,
2053,
1961,
1832,
1814,
1780,
1839,
1831,
1680,
1459,
1328,
1314,
1262,
1237,
1098,
1122,
1042,
1010,
935,
888,
867,
849,
817,
771,
643,
646,
637,
546,
506,
471,
495,
473,
433,
429,
373,
367,
339,
322,
306,
294,
232,
198,
175,
183,
174,
163,
132,
135,
110,
82,
95,
83,
68,
64,
33,
34,
25,
19,
18,
3,
0,
5,
1,
3,
2,
1,
0,
2,
1,
3,
0,
2,
0,
2,
2,
0,
2,
0,
0,
0,
2,
0,
0,
1,
0,
0,
0,
0,
0,
1,
0,
0,
0,
0,
0,
0,
1,
0,
2,
0,
0,
0,
0,
0,
0,
0,
0,
0,
0,
0,
0,
0,
0,
0,
0,
0,
0,
0,
0,
0,
0,
0,
0,
0,
0,
0,
0,
0,
0,
0,
0,
0,
0,
0,
0,
0,
0,
0,
0,
0,
0,
0,
0,
0,
0,
0,
0,
0,
0,
0,
0,
0,
0,
0,
0,
0,
0,
0,
0,
0,
0,
0,
0,
0,
0,
0,
0,
0,
0,
0,
0,
0,
0,
0,
0,
0,
0,
0,
0,
0,
0,
0,
0,
0,
0,
0,
0,
0,
0,
0,
0,
0,
0,
0,
0,
0,
0,
0,
0,
0,
0,
0,
0,
0,
0,
0,
0,
0,
0,
0,
#ENDOFDATA   :