Folder: HyperspectraWithNeXL.jl/data/exp_raw/K2496

Note: README.md
# HyperspectraWithNeXL

This code base is using the Julia Language and [DrWatson](https://juliadynamics.github.io/DrWatson.jl/stable/)
to make a reproducible scientific project named
> HyperspectraWithNeXL

HyperspectraWithNeXL provides the code and data discussed in the paper "Reproducible Spectral and Hyper-Spectral Analysis using NeXL"

The project is authored by Nicholas W. M. Ritchie.

To (locally) reproduce this project, do the following:

0. Download this code base. Notice that not all raw data is included in the git-history but will be automatically downloaded from the NIST MIDAS site upon first demand.
1. Open a Julia console and do:
   ```
   julia> using Pkg
   julia> Pkg.activate("path/to/this/project")
   julia> Pkg.instantiate()
   ```

This will install all necessary packages for you to be able to run the scripts and
everything should work out of the box.

File: Benitoite std.msa
#FORMAT      : EMSA/MAS Spectral Data File
#VERSION     : 1.0
#TITLE       : Bruker AXS spectrum Cu_10kV20nAMED_47kHz11DT_02082013_100s.msa
#DATE        : 08-FEB-2013
#TIME        : 09:01
#OWNER       : Bruker AXS
#NPOINTS     : 4096
#NCOLUMNS    : 1
#XUNITS      : eV
#YUNITS      : counts
#DATATYPE    : Y
#XPERCHAN    : 4.98077
#OFFSET      : -473.324
#BEAMKV      : 10
#SIGNALTYPE  : EDS
#ELEVANGLE   : 40
#AZIMANGLE   : 0
#LIVETIME    : 101.488
#REALTIME    : 109.477
#PROBECUR    : 20
#TDEADLYR    : 0.00001
#TACTLYR     : 0.045
#TALWIND     : 0.004
#CHOFFSET    : 0.0
#XLABEL      : Energy (eV)
#YLABEL      : Counts
#EDSDET      : SDDUTW
##D2STDCMP   : Benitoite,(O:34.83),(Si:20.38),(Ti:11.58),(Ba:33.21),5.0
##DET_HASH   : 29d35019-c5e1-311a-ffb2-bbc1a5950369
##CALIB_HASH : 043ba274-c987-fc55-1349-ceef0c075250
#SPECTRUM    :
0,
0,
0,
0,
0,
0,
16836,
408136,
96,
1583,
7992,
10501,
7561,
20774,
153674,
30060,
5917,
6218,
11594,
6734,
7111,
8998,
8191,
6954,
6839,
7098,
6852,
7230,
7488,
7218,
7822,
64065,
121832,
15190,
6021,
5163,
5068,
5085,
5085,
5043,
4566,
4354,
4303,
4082,
4119,
3869,
3688,
3632,
3566,
3512,
3426,
3383,
3240,
3163,
3121,
3044,
2952,
2958,
2771,
2732,
2562,
2545,
2527,
2827,
2699,
2261,
2204,
2181,
2351,
3593,
15809,
27495,
10920,
2480,
2164,
5129,
8210,
5891,
3377,
2062,
3347,
3252,
1718,
1334,
1384,
1724,
2051,
1441,
1221,
1306,
1363,
1118,
1059,
1064,
959,
965,
909,
900,
910,
875,
801,
751,
750,
754,
716,
718,
703,
653,
600,
620,
618,
563,
572,
542,
524,
524,
521,
461,
439,
414,
411,
400,
402,
330,
362,
331,
303,
328,
267,
259,
218,
247,
236,
234,
205,
211,
164,
151,
157,
127,
150,
153,
94,
95,
85,
69,
47,
36,
34,
23,
12,
3,
3,
5,
6,
7,
3,
2,
3,
4,
3,
5,
6,
2,
1,
4,
2,
2,
4,
2,
1,
3,
3,
1,
2,
1,
0,
2,
1,
2,
1,
0,
0,
1,
0,
1,
2,
2,
0,
1,
3,
0,
1,
1,
0,
0,
0,
0,
0,
0,
0,
0,
0,
0,
0,
0,
0,
0,
0,
0,
0,
1,
0,
0,
0,
0,
0,
0,
0,
0,
1,
0,
0,
0,
0,
0,
0,
0,
0,
0,
0,
0,
0,
0,
0,
1,
0,
0,
1,
0,
0,
0,
0,
0,
0,
0,
0,
0,
0,
0,
0,
0,
0,
0,
0,
0,
0,
0,
0,
0,
0,
0,
0,
0,
0,
0,
0,
0,
0,
0,
0,
0,
0,
0,
0,
0,
0,
0,
0,
0,
0,
0,
0,
0,
0,
0,
0,
0,
0,
0,
0,
0,
0,
0,
#ENDOFDATA   :

File: C std.msa
#FORMAT      : EMSA/MAS Spectral Data File
#VERSION     : 1.0
#TITLE       : Bruker AXS spectrum Cu_10kV20nAMED123kHz11DT_50s.msa
#DATE        : 24-JAN-2013
#TIME        : 02:54
#OWNER       : Bruker AXS
#NPOINTS     : 4096
#NCOLUMNS    : 1
#XUNITS      : eV
#YUNITS      : counts
#DATATYPE    : Y
#XPERCHAN    : 4.98077
#OFFSET      : -473.324
#BEAMKV      : 10
#SIGNALTYPE  : EDS
#ELEVANGLE   : 40
#AZIMANGLE   : 0
#LIVETIME    : 50.751
#REALTIME    : 54.727
#PROBECUR    : 20
#TDEADLYR    : 0.00001
#TACTLYR     : 0.045
#TALWIND     : 0.004
#CHOFFSET    : 0.0
#XLABEL      : Energy (eV)
#YLABEL      : Counts
#EDSDET      : SDDUTW
##D2STDCMP   : C,(C:100.0),2.0
##DET_HASH   : 29d35019-c5e1-311a-ffb2-bbc1a5950369
##CALIB_HASH : 043ba274-c987-fc55-1349-ceef0c075250
#SPECTRUM    :
0,
0,
0,
0,
0,
0,
9135,
242504,
114,
762,
103398,
217309,
2194,
2760,
4350,
1163,
1029,
1200,
1425,
1474,
1606,
1675,
1703,
1652,
1640,
1599,
1534,
1443,
1396,
1288,
1237,
1285,
1440,
1074,
952,
895,
855,
794,
777,
765,
779,
725,
658,
632,
614,
570,
564,
572,
528,
536,
482,
447,
454,
454,
400,
380,
382,
377,
365,
372,
347,
309,
300,
305,
303,
271,
246,
224,
253,
224,
227,
210,
223,
219,
198,
186,
182,
197,
166,
154,
161,
151,
150,
142,
138,
131,
128,
140,
115,
121,
103,
102,
93,
105,
105,
98,
87,
99,
88,
88,
66,
75,
69,
74,
79,
54,
52,
62,
62,
52,
52,
56,
42,
40,
50,
44,
34,
41,
48,
33,
36,
32,
36,
28,
33,
25,
24,
22,
23,
18,
23,
16,
17,
22,
8,
11,
15,
9,
13,
8,
9,
9,
6,
10,
6,
2,
3,
3,
2,
0,
0,
0,
0,
0,
0,
0,
0,
0,
0,
0,
0,
0,
0,
0,
0,
0,
0,
1,
0,
0,
0,
0,
0,
0,
0,
0,
0,
0,
0,
0,
0,
0,
0,
0,
0,
0,
0,
0,
0,
0,
0,
0,
0,
0,
0,
0,
0,
0,
0,
0,
0,
0,
0,
0,
0,
0,
0,
0,
0,
0,
0,
0,
0,
0,
0,
0,
0,
0,
0,
0,
0,
0,
0,
0,
0,
0,
0,
0,
0,
0,
0,
0,
0,
0,
0,
0,
0,
0,
0,
0,
0,
0,
0,
0,
0,
0,
0,
0,
0,
0,
0,
0,
0,
0,
0,
0,
0,
0,
0,
0,
0,
0,
0,
0,
0,
0,
0,
0,
0,
0,
0,
0,
0,
0,
0,
0,
0,
0,
0,
0,
0,
0,
0,
0,
0,
0,
0,
0,
0,
0,
0,
0,
0,
0,
#ENDOFDATA   :