Folder: HyperspectraWithNeXL.jl/data/exp_raw/Mn Nodule

Note: README.md
# HyperspectraWithNeXL

This code base is using the Julia Language and [DrWatson](https://juliadynamics.github.io/DrWatson.jl/stable/)
to make a reproducible scientific project named
> HyperspectraWithNeXL

HyperspectraWithNeXL provides the code and data discussed in the paper "Reproducible Spectral and Hyper-Spectral Analysis using NeXL"

The project is authored by Nicholas W. M. Ritchie.

To (locally) reproduce this project, do the following:

0. Download this code base. Notice that not all raw data is included in the git-history but will be automatically downloaded from the NIST MIDAS site upon first demand.
1. Open a Julia console and do:
   ```
   julia> using Pkg
   julia> Pkg.activate("path/to/this/project")
   julia> Pkg.instantiate()
   ```

This will install all necessary packages for you to be able to run the scripts and
everything should work out of the box.

File: MaxPixel[Region 1].msa
#FORMAT      : EMSA/MAS Spectral Data File
#VERSION     : 1.0
#TITLE       : MaxPixel[Region 1]
#DATE        : 31-DEC-1969
#TIME        : 07:00
#OWNER       : Unknown
#NPOINTS     : 2048
#NCOLUMNS    : 1
#XUNITS      : eV
#YUNITS      : counts
#DATATYPE    : Y
#XPERCHAN    : 9.99864
#OFFSET      : 2.58389
#SIGNALTYPE  : EDS
#ELEVANGLE   : 35
#AZIMANGLE   : 0
#TAUWIND     : 0
#TDEADLYR    : 0
#TACTLYR     : 0.045
#TALWIND     : 0.003
#CHOFFSET    : 0.0
#XLABEL      : Energy (eV)
#YLABEL      : Counts
#EDSDET      : SDUTW
##SPECIMEN   : MaxPixel[Region 1]
##DET_HASH   : 97086dfe-e5c2-9c77-3984-1d0b14bbbf41
##CALIB_HASH : 74de4f47-d9d5-d258-4eaf-eeb143e27589
#SPECTRUM    :
2,
2,
3,
32,
258,
14,
18,
143,
81,
52,
99,
31,
181,
200,
165,
122,
16,
34,
164,
19,
24,
175,
67,
18,
131,
464,
68,
75,
123,
127,
26,
16,
23,
83,
23,
15,
15,
28,
25,
15,
15,
15,
19,
38,
15,
13,
20,
158,
114,
14,
14,
26,
88,
170,
35,
14,
12,
28,
19,
14,
12,
12,
12,
34,
109,
89,
15,
11,
17,
31,
19,
18,
11,
10,
13,
10,
12,
14,
17,
10,
10,
11,
16,
54,
138,
91,
26,
11,
11,
10,
39,
153,
126,
32,
15,
10,
9,
8,
9,
11,
24,
28,
12,
8,
8,
14,
64,
66,
29,
8,
8,
7,
8,
10,
32,
41,
25,
8,
16,
8,
8,
8,
22,
41,
37,
10,
7,
9,
7,
7,
7,
6,
7,
6,
6,
7,
7,
7,
7,
6,
6,
6,
6,
6,
6,
6,
6,
7,
7,
6,
7,
6,
5,
5,
6,
6,
6,
6,
6,
6,
5,
5,
6,
5,
5,
6,
6,
6,
6,
6,
6,
6,
5,
5,
6,
5,
6,
5,
5,
5,
5,
5,
6,
5,
4,
5,
5,
5,
5,
5,
5,
5,
4,
4,
4,
4,
4,
4,
5,
4,
5,
5,
4,
4,
4,
4,
4,
5,
4,
4,
4,
4,
4,
4,
4,
4,
4,
4,
4,
4,
3,
4,
3,
3,
4,
3,
4,
4,
3,
4,
3,
4,
3,
3,
3,
4,
3,
3,
4,
3,
3,
3,
3,
3,
3,
3,
3,
3,
3,
3,
3,
3,
3,
3,
3,
3,
3,
3,
3,
2,
2,
2,
3,
2,
2,
3,
2,
2,
2,
3,
2,
2,
2,
2,
2,
2,
1,
2,
2,
1,
1,
1,
2,
1,
1,
1,
1,
1,
1,
1,
1,
1,
1,
1,
#ENDOFDATA   :