Folder: HyperspectraWithNeXL.jl/data/exp_raw/Mn Nodule/Standards

Note: README.md
# HyperspectraWithNeXL

This code base is using the Julia Language and [DrWatson](https://juliadynamics.github.io/DrWatson.jl/stable/)
to make a reproducible scientific project named
> HyperspectraWithNeXL

HyperspectraWithNeXL provides the code and data discussed in the paper "Reproducible Spectral and Hyper-Spectral Analysis using NeXL"

The project is authored by Nicholas W. M. Ritchie.

To (locally) reproduce this project, do the following:

0. Download this code base. Notice that not all raw data is included in the git-history but will be automatically downloaded from the NIST MIDAS site upon first demand.
1. Open a Julia console and do:
   ```
   julia> using Pkg
   julia> Pkg.activate("path/to/this/project")
   julia> Pkg.instantiate()
   ```

This will install all necessary packages for you to be able to run the scripts and
everything should work out of the box.

File: Os std.msa
#FORMAT      : EMSA/MAS Spectral Data File
#VERSION     : 1.0
#TITLE       : Os std
#DATE        : 30-APR-2021
#TIME        : 01:14
#OWNER       : Unknown
#NPOINTS     : 4096
#NCOLUMNS    : 1
#XUNITS      : eV
#YUNITS      : counts
#DATATYPE    : Y
#XPERCHAN    : 9.99864
#OFFSET      : 2.58389
#BEAMKV      : 20
#SIGNALTYPE  : EDS
#ELEVANGLE   : 35
#AZIMANGLE   : 0
#LIVETIME    : 1176.34
#REALTIME    : 1675.2
#PROBECUR    : 0.91248
#TAUWIND     : 0
#TDEADLYR    : 0
#TACTLYR     : 0.045
#TALWIND     : 0.003
#CHOFFSET    : 0.0
#XLABEL      : Energy (eV)
#YLABEL      : Counts
#EDSDET      : SDUTW
##SPECIMEN   : Os std
##D2STDCMP   : Os,(Os:100.0),15.0
##DET_HASH   : 97086dfe-e5c2-9c77-3984-1d0b14bbbf41
##CALIB_HASH : 2c5bd8a8-87f0-27c7-a5de-2beb7e661b9a
##WORKING    : 17.0 mm
##SAMPLE     : <BulkSample id="1">\n<mOrientation id="2">\n<double>0.0</double>\n<double>0.0</double>\n<double>-1.0</double>\n</mOrientation>\n</BulkSample>
#SPECTRUM    :
23,
614,
34892,
17776,
22135,
31696,
42523,
54144,
63732,
71341,
84028,
129748,
81530,
285159,
1572037,
54610,
48429,
37239,
45652,
34570,
34317,
35184,
35532,
35699,
36255,
36964,
37093,
39062,
39950,
37021,
36428,
36030,
38256,
35109,
34760,
34501,
33895,
33332,
32623,
31802,
31517,
30674,
30650,
29884,
29008,
28614,
28025,
27424,
26765,
26508,
25534,
25242,
24550,
24275,
23681,
24807,
32829,
22485,
21709,
21107,
20918,
20446,
23097,
127239,
174643,
23516,
18853,
18492,
16715,
16427,
16118,
15984,
19099,
36023,
82576,
48163,
45915,
17042,
14194,
11797,
11283,
10704,
10451,
10452,
10431,
10447,
18548,
14555,
10542,
11268,
9230,
8028,
7921,
7318,
6915,
6789,
6402,
6157,
5929,
5757,
5561,
5222,
5132,
4973,
4752,
4453,
4284,
4080,
3986,
3683,
3600,
3420,
3353,
3127,
3007,
2721,
2694,
2460,
2310,
2197,
2142,
2008,
1884,
1673,
1713,
1558,
1386,
1362,
1237,
1078,
1011,
986,
836,
755,
730,
641,
518,
447,
391,
321,
289,
194,
104,
49,
25,
18,
15,
15,
28,
17,
13,
16,
12,
14,
12,
10,
7,
9,
8,
7,
13,
5,
7,
7,
7,
9,
4,
4,
5,
6,
3,
4,
7,
6,
2,
3,
1,
1,
4,
2,
0,
1,
3,
1,
3,
7,
0,
2,
1,
1,
3,
1,
3,
1,
1,
1,
3,
2,
1,
0,
2,
0,
1,
0,
0,
1,
0,
0,
1,
0,
0,
1,
0,
0,
0,
0,
1,
0,
0,
0,
0,
0,
0,
0,
0,
0,
0,
0,
0,
0,
0,
0,
0,
0,
0,
0,
0,
0,
0,
0,
0,
0,
0,
0,
0,
0,
0,
0,
0,
0,
0,
0,
0,
0,
0,
0,
0,
0,
0,
0,
0,
0,
0,
0,
0,
0,
0,
0,
0,
0,
0,
0,
0,
0,
0,
0,
0,
0,
0,
0,
0,
0,
0,
0,
0,
0,
0,
0,
0,
0,
0,
0,
0,
0,
#ENDOFDATA   :